imageFile,maxPumps,trials.thisRepN,trials.thisTrialN,trials.thisN,trials.thisIndex,instrMessage.started,instrMessage.stopped,nPumps,size,earnings,popped,balloonBody.started,balloonBody.stopped,reminderMsg.started,reminderMsg.stopped,balloonValMsg.started,balloonValMsg.stopped,bankedMsg.started,bankedMsg.stopped,feedbackMsg.started,feedbackMsg.stopped,finalScore_2.started,finalScore_2.stopped,doneKey.keys,doneKey.rt,doneKey.started,doneKey.stopped,expName,gender (m/f),psychopyVersion,age,frameRate,session,date,participant,
blueBalloon.png,2.0,0,0,0,0,8.32124304771,None,2,0.13,0.1,False,10.949021101,None,10.949021101,None,10.949021101,None,10.949021101,None,13.0554859638,None,,,,,,,bart,m,3.0.3,26,60.029855317638535,004,2019_Jul_09_2126,Kevin,
blueBalloon.png,5.0,0,1,1,3,,,1,0.115,0.05,False,14.5778269768,None,14.5778269768,None,14.5778269768,None,14.5778269768,None,14.9726610184,None,,,,,,,bart,m,3.0.3,26,60.029855317638535,004,2019_Jul_09_2126,Kevin,
blueBalloon.png,6.0,0,2,2,4,,,0,0.1,0.0,False,16.4957680702,None,16.4957680702,None,16.4957680702,None,16.4957680702,None,16.7435369492,None,,,,,,,bart,m,3.0.3,26,60.029855317638535,004,2019_Jul_09_2126,Kevin,
blueBalloon.png,7.0,0,3,3,5,,,1,0.115,0.05,False,18.236344099,None,18.236344099,None,18.236344099,None,18.236344099,None,18.5193369389,None,,,,,,,bart,m,3.0.3,26,60.029855317638535,004,2019_Jul_09_2126,Kevin,
blueBalloon.png,None,0,4,4,24,,,1,0.115,0.05,False,20.0496120453,None,20.0496120453,None,20.0496120453,None,20.0496120453,None,20.3073251247,None,,,,,,,bart,m,3.0.3,26,60.029855317638535,004,2019_Jul_09_2126,Kevin,
blueBalloon.png,None,0,5,5,18,,,1,0.115,0.05,False,21.851981163,None,21.851981163,None,21.851981163,None,21.851981163,None,22.1325750351,None,,,,,,,bart,m,3.0.3,26,60.029855317638535,004,2019_Jul_09_2126,Kevin,
blueBalloon.png,8.0,0,6,6,6,,,1,0.115,0.05,False,23.6617431641,None,23.6617431641,None,23.6617431641,None,23.6617431641,None,23.9287991524,None,,,,,,,bart,m,3.0.3,26,60.029855317638535,004,2019_Jul_09_2126,Kevin,
blueBalloon.png,None,0,7,7,14,,,1,0.115,0.05,False,25.461935997,None,25.461935997,None,25.461935997,None,25.461935997,None,25.7154581547,None,,,,,,,bart,m,3.0.3,26,60.029855317638535,004,2019_Jul_09_2126,Kevin,
blueBalloon.png,4.0,0,8,8,2,,,1,0.115,0.05,False,27.2391469479,None,27.2391469479,None,27.2391469479,None,27.2391469479,None,27.5105979443,None,,,,,,,bart,m,3.0.3,26,60.029855317638535,004,2019_Jul_09_2126,Kevin,
blueBalloon.png,3.0,0,9,9,1,,,1,0.115,0.05,False,29.0404319763,None,29.0404319763,None,29.0404319763,None,29.0404319763,None,29.3279049397,None,,,,,,,bart,m,3.0.3,26,60.029855317638535,004,2019_Jul_09_2126,Kevin,
blueBalloon.png,None,0,10,10,12,,,1,0.115,0.05,False,30.8538761139,None,30.8538761139,None,30.8538761139,None,30.8538761139,None,31.6704211235,None,,,,,,,bart,m,3.0.3,26,60.029855317638535,004,2019_Jul_09_2126,Kevin,
blueBalloon.png,None,0,11,11,13,,,1,0.115,0.05,False,33.1968970299,None,33.1968970299,None,33.1968970299,None,33.1968970299,None,33.7557430267,None,,,,,,,bart,m,3.0.3,26,60.029855317638535,004,2019_Jul_09_2126,Kevin,
blueBalloon.png,10.0,0,12,12,8,,,1,0.115,0.05,False,35.2832911015,None,35.2832911015,None,35.2832911015,None,35.2832911015,None,35.6177949905,None,,,,,,,bart,m,3.0.3,26,60.029855317638535,004,2019_Jul_09_2126,Kevin,
blueBalloon.png,None,0,13,13,10,,,1,0.115,0.05,False,37.155395031,None,37.155395031,None,37.155395031,None,37.155395031,None,37.4176051617,None,,,,,,,bart,m,3.0.3,26,60.029855317638535,004,2019_Jul_09_2126,Kevin,
blueBalloon.png,None,0,14,14,28,,,1,0.115,0.05,False,38.9484021664,None,38.9484021664,None,38.9484021664,None,38.9484021664,None,39.1966760159,None,,,,,,,bart,m,3.0.3,26,60.029855317638535,004,2019_Jul_09_2126,Kevin,
blueBalloon.png,11.0,0,15,15,9,,,1,0.115,0.05,False,40.7390379906,None,40.7390379906,None,40.7390379906,None,40.7390379906,None,41.0156991482,None,,,,,,,bart,m,3.0.3,26,60.029855317638535,004,2019_Jul_09_2126,Kevin,
blueBalloon.png,None,0,16,16,25,,,1,0.115,0.05,False,42.5498731136,None,42.5498731136,None,42.5498731136,None,42.5498731136,None,42.8229031563,None,,,,,,,bart,m,3.0.3,26,60.029855317638535,004,2019_Jul_09_2126,Kevin,
blueBalloon.png,None,0,17,17,22,,,1,0.115,0.05,False,44.3557829857,None,44.3557829857,None,44.3557829857,None,44.3557829857,None,44.6056511402,None,,,,,,,bart,m,3.0.3,26,60.029855317638535,004,2019_Jul_09_2126,Kevin,
blueBalloon.png,None,0,18,18,26,,,1,0.115,0.05,False,46.1301751137,None,46.1301751137,None,46.1301751137,None,46.1301751137,None,46.436809063,None,,,,,,,bart,m,3.0.3,26,60.029855317638535,004,2019_Jul_09_2126,Kevin,
blueBalloon.png,None,0,19,19,15,,,1,0.115,0.05,False,47.969604969,None,47.969604969,None,47.969604969,None,47.969604969,None,48.2652420998,None,,,,,,,bart,m,3.0.3,26,60.029855317638535,004,2019_Jul_09_2126,Kevin,
blueBalloon.png,None,0,20,20,11,,,1,0.115,0.05,False,49.802767992,None,49.802767992,None,49.802767992,None,49.802767992,None,50.1008009911,None,,,,,,,bart,m,3.0.3,26,60.029855317638535,004,2019_Jul_09_2126,Kevin,
blueBalloon.png,None,0,21,21,23,,,1,0.115,0.05,False,51.6326920986,None,51.6326920986,None,51.6326920986,None,51.6326920986,None,51.8805689812,None,,,,,,,bart,m,3.0.3,26,60.029855317638535,004,2019_Jul_09_2126,Kevin,
blueBalloon.png,None,0,22,22,17,,,1,0.115,0.05,False,53.4217031002,None,53.4217031002,None,53.4217031002,None,53.4217031002,None,53.6663219929,None,,,,,,,bart,m,3.0.3,26,60.029855317638535,004,2019_Jul_09_2126,Kevin,
blueBalloon.png,9.0,0,23,23,7,,,1,0.115,0.05,False,55.2021911144,None,55.2021911144,None,55.2021911144,None,55.2021911144,None,55.4470291138,None,,,,,,,bart,m,3.0.3,26,60.029855317638535,004,2019_Jul_09_2126,Kevin,
blueBalloon.png,None,0,24,24,21,,,1,0.115,0.05,False,56.9807450771,None,56.9807450771,None,56.9807450771,None,56.9807450771,None,57.2499470711,None,,,,,,,bart,m,3.0.3,26,60.029855317638535,004,2019_Jul_09_2126,Kevin,
blueBalloon.png,None,0,25,25,29,,,1,0.115,0.05,False,58.7831289768,None,58.7831289768,None,58.7831289768,None,58.7831289768,None,59.0739791393,None,,,,,,,bart,m,3.0.3,26,60.029855317638535,004,2019_Jul_09_2126,Kevin,
blueBalloon.png,None,0,26,26,27,,,0,0.1,0.0,False,60.6088731289,None,60.6088731289,None,60.6088731289,None,60.6088731289,None,60.8301990032,None,,,,,,,bart,m,3.0.3,26,60.029855317638535,004,2019_Jul_09_2126,Kevin,
blueBalloon.png,None,0,27,27,19,,,2,0.13,0.1,False,62.321762085,None,62.321762085,None,62.321762085,None,62.321762085,None,62.6189091206,None,,,,,,,bart,m,3.0.3,26,60.029855317638535,004,2019_Jul_09_2126,Kevin,
blueBalloon.png,None,0,28,28,20,,,1,0.115,0.05,False,64.1354219913,None,64.1354219913,None,64.1354219913,None,64.1354219913,None,64.4139430523,None,,,,,,,bart,m,3.0.3,26,60.029855317638535,004,2019_Jul_09_2126,Kevin,
blueBalloon.png,None,0,29,29,16,,,1,0.115,0.05,False,65.9303059578,None,65.9303059578,None,65.9303059578,None,65.9303059578,None,66.2486021519,None,,,,,,,bart,m,3.0.3,26,60.029855317638535,004,2019_Jul_09_2126,Kevin,
,,,,,,,,,,,,,,,,,,,,,,67.8912160397,None,space,5.58160805702,67.8912160397,None,bart,m,3.0.3,26,60.029855317638535,004,2019_Jul_09_2126,Kevin,
